"rt","correct","stimulus","key_press","phase","verif_ans","trial_type","trial_index","time_elapsed","internal_node_id","resp_iscorrect","verif_response","responses"
"3099","true","img/F01.jpg","89","0","y","categorize-image-asp","9","1177643","0.0-8.0-1.0","true","89",""
"30168","","","","0","","image-text","10","1207814","0.0-8.0-2.0","","","{""Q0"":""The sailor is holding a broom.""}"
"4166","true","img/F03.jpg","89","0","y","categorize-image-asp","13","1227972","0.0-8.0-1.1","true","89",""
"18552","","","","0","","image-text","14","1246526","0.0-8.0-2.1","","","{""Q0"":""The cane is held by the waitress.""}"
"2930","true","img/F05.jpg","89","0","y","categorize-image-asp","17","1262202","0.0-8.0-1.2","true","89",""
"14361","","","","0","","image-text","18","1276565","0.0-8.0-2.2","","","{""Q0"":""A mop is held by the soldier.""}"
"5183","true","img/P06.jpg","89","1","y","categorize-image-asp","21","1299029","0.0-10.0-0.0","true","89",""
"34053","","","","1","","image-text","22","1333085","0.0-10.0-1.0","","","{""Q0"":""The woman brings water to the man.""}"
"2058","true","img/P37.jpg","89","1","y","categorize-image-asp","24","1348161","0.0-10.0-0.1","true","89",""
"19457","","","","1","","image-text","25","1367621","0.0-10.0-1.1","","","{""Q0"":""The nun kisses the ballerina.""}"
"2041","true","img/P01.jpg","89","1","y","categorize-image-asp","27","1382631","0.0-10.0-0.2","true","89",""
"18115","","","","1","","image-text","28","1400748","0.0-10.0-1.2","","","{""Q0"":""The police officer chases the thief.""}"
"2389","false","img/P07.jpg","89","1","n","categorize-image-asp","30","1417790","0.0-10.0-0.3","false","89",""
"23108","","","","1","","image-text","31","1440901","0.0-10.0-1.3","","","{""Q0"":""The nurse is running after the doctor.""}"
"3751","false","img/P27.jpg","89","1","n","categorize-image-asp","33","1457712","0.0-10.0-0.4","false","89",""
"16217","","","","1","","image-text","34","1473933","0.0-10.0-1.4","","","{""Q0"":""The police officer scolds the ballerina.""}"
"3911","false","img/P24.jpg","89","1","n","categorize-image-asp","36","1489842","0.0-10.0-0.5","false","89",""
"20279","","","","1","","image-text","37","1510123","0.0-10.0-1.5","","","{""Q0"":""The sailor playfully touches the clown.""}"
"4183","false","img/P19.jpg","89","1","n","categorize-image-asp","39","1528196","0.0-10.0-0.6","false","89",""
"20260","","","","1","","image-text","40","1548458","0.0-10.0-1.6","","","{""Q0"":""The artist punches the man.""}"
"1786","false","img/P40.jpg","89","1","n","categorize-image-asp","42","1565295","0.0-10.0-0.7","false","89",""
"10506","","","","1","","image-text","43","1575803","0.0-10.0-1.7","","","{""Q0"":""The clown is pulled by the boxer.""}"
"2131","true","img/P22.jpg","89","1","y","categorize-image-asp","45","1590085","0.0-10.0-0.8","true","89",""
"16763","","","","1","","image-text","46","1606850","0.0-10.0-1.8","","","{""Q0"":""The sailor touches the swimmer.""}"
"1195","false","img/P15.jpg","89","1","n","categorize-image-asp","48","1622064","0.0-10.0-0.9","false","89",""
"13632","","","","1","","image-text","49","1635698","0.0-10.0-1.9","","","{""Q0"":""The nun is following the boxer.""}"
"2449","true","img/P33.jpg","89","1","y","categorize-image-asp","51","1648045","0.0-10.0-0.10","true","89",""
"9099","","","","1","","image-text","52","1657146","0.0-10.0-1.10","","","{""Q0"":""The nun kisses the boxer.""}"
"1109","true","img/P45.jpg","89","1","y","categorize-image-asp","54","1672044","0.0-10.0-0.11","true","89",""
"8764","","","","1","","image-text","55","1680810","0.0-10.0-1.11","","","{""Q0"":""The cowboy slaps the sailor.""}"
"2301","true","img/P46.jpg","89","1","y","categorize-image-asp","57","1697284","0.0-10.0-0.12","true","89",""
"15474","","","","1","","image-text","58","1712761","0.0-10.0-1.12","","","{""Q0"":""The doctor is tickled by teh waitress.""}"
"1975","true","img/P21.jpg","89","1","y","categorize-image-asp","60","1725662","0.0-10.0-0.13","true","89",""
"16448","","","","1","","image-text","61","1742114","0.0-10.0-1.13","","","{""Q0"":""The doctor is punched by the cowboy!""}"
"2229","true","img/P25.jpg","89","1","y","categorize-image-asp","63","1755003","0.0-10.0-0.14","true","89",""
"10883","","","","1","","image-text","64","1765889","0.0-10.0-1.14","","","{""Q0"":""The academic scolds the sailor.""}"
"1784","true","img/P13.jpg","89","1","y","categorize-image-asp","66","1780623","0.0-10.0-0.15","true","89",""
"10279","","","","1","","image-text","67","1790904","0.0-10.0-1.15","","","{""Q0"":""The soldier is followed by the nun.""}"
"815","true","img/P12.jpg","89","1","y","categorize-image-asp","69","1806703","0.0-10.0-0.16","true","89",""
"16270","","","","1","","image-text","70","1822977","0.0-10.0-1.16","","","{""Q0"":""The cowboy forcefully pushes the swimmer.""}"
"1364","false","img/P47.jpg","89","1","n","categorize-image-asp","72","1836463","0.0-10.0-0.17","false","89",""
"10703","","","","1","","image-text","73","1847168","0.0-10.0-1.17","","","{""Q0"":""The ballerina is slapped by the cowboy.""}"
"1347","true","img/P28.jpg","89","1","y","categorize-image-asp","75","1860572","0.0-10.0-0.18","true","89",""
"14842","","","","1","","image-text","76","1875416","0.0-10.0-1.18","","","{""Q0"":""Thechef  shoots the boxer!""}"
"1446","false","img/P32.jpg","89","1","n","categorize-image-asp","78","1889052","0.0-10.0-0.19","false","89",""
"11569","","","","1","","image-text","79","1900624","0.0-10.0-1.19","","","{""Q0"":""The chef shoots the swimmer!""}"
"551","true","img/P17.jpg","89","1","y","categorize-image-asp","81","1912562","0.0-10.0-0.20","true","89",""
"14226","","","","1","","image-text","82","1926792","0.0-10.0-1.20","","","{""Q0"":""The artist punches the clown.""}"
"652","false","img/P31.jpg","89","1","n","categorize-image-asp","84","1936832","0.0-10.0-0.21","false","89",""
"13860","","","","1","","image-text","85","1950695","0.0-10.0-1.21","","","{""Q0"":""The acadmic scolds the soldier.""}"
"918","true","img/P09.jpg","89","1","y","categorize-image-asp","87","1964282","0.0-10.0-0.22","true","89",""
"10818","","","","1","","image-text","88","1975103","0.0-10.0-1.22","","","{""Q0"":""The sailor is followed by the pirate!""}"
"1342","true","img/P29.jpg","89","1","y","categorize-image-asp","90","1990672","0.0-10.0-0.23","true","89",""
"12204","","","","1","","image-text","91","2002879","0.0-10.0-1.23","","","{""Q0"":""The boxer is scolded by the police officer.""}"
"1119","false","img/P03.jpg","89","1","n","categorize-image-asp","93","2012361","0.0-10.0-0.24","false","89",""
"18610","","","","1","","image-text","94","2030975","0.0-10.0-1.24","","","{""Q0"":""The swimmer is chased by the police officer.""}"
"1694","false","img/P08.jpg","89","1","n","categorize-image-asp","96","2043100","0.0-10.0-0.25","false","89",""
"14830","","","","1","","image-text","97","2057934","0.0-10.0-1.25","","","{""Q0"":""The thief is kicked by the waitress.""}"
"797","true","img/P38.jpg","89","1","y","categorize-image-asp","99","2069371","0.0-10.0-0.26","true","89",""
"9719","","","","1","","image-text","100","2079093","0.0-10.0-1.26","","","{""Q0"":""The ballerina is pulled by the pirate.""}"
"2221","false","img/P48.jpg","89","1","n","categorize-image-asp","102","2095630","0.0-10.0-0.27","false","89",""
"18709","","","","1","","image-text","103","2114341","0.0-10.0-1.27","","","{""Q0"":""The monk is playfully tickled by the waitress.""}"
"1155","false","img/P11.jpg","89","1","n","categorize-image-asp","105","2126780","0.0-10.0-0.28","false","89",""
"16327","","","","1","","image-text","106","2143109","0.0-10.0-1.28","","","{""Q0"":""The pirate follows the doctor.""}"
"618","false","img/P39.jpg","89","1","n","categorize-image-asp","108","2154440","0.0-10.0-0.29","false","89",""
"15066","","","","1","","image-text","109","2169508","0.0-10.0-1.29","","","{""Q0"":""The clown is kissed by teh artist.""}"
"746","false","img/P35.jpg","89","1","n","categorize-image-asp","111","2180570","0.0-10.0-0.30","false","89",""
"9737","","","","1","","image-text","112","2190309","0.0-10.0-1.30","","","{""Q0"":""The artist kisses the soldier.""}"
"761","false","img/P23.jpg","89","1","n","categorize-image-asp","114","2201759","0.0-10.0-0.31","false","89",""
"10730","","","","1","","image-text","115","2212492","0.0-10.0-1.31","","","{""Q0"":""The cowboy punches the ballerina.""}"
"852","false","img/P43.jpg","89","1","n","categorize-image-asp","117","2226829","0.0-10.0-0.32","false","89",""
"15019","","","","1","","image-text","118","2241852","0.0-10.0-1.32","","","{""Q0"":""The police officer slaps the boxer.""}"
"1886","true","img/P05.jpg","89","1","y","categorize-image-asp","120","2253609","0.0-10.0-0.33","true","89",""
"14297","","","","1","","image-text","121","2267908","0.0-10.0-1.33","","","{""Q0"":""The robber is chased away by the pirate.""}"
"1788","true","img/P41.jpg","89","1","y","categorize-image-asp","123","2282119","0.0-10.0-0.34","true","89",""
"12874","","","","1","","image-text","124","2294996","0.0-10.0-1.34","","","{""Q0"":""The swimmer is slapped by the police officer.""}"
"531","false","img/P16.jpg","89","1","n","categorize-image-asp","126","2306958","0.0-10.0-0.35","false","89",""
"14849","","","","1","","image-text","127","2321811","0.0-10.0-1.35","","","{""Q0"":""The ballerina is pushed by the cowboy.""}"
"148220","","","","2","","survey-text","129","2474201","0.0-11.0","","","{""Q0"":""Yes I am."",""Q1"":""Yes, i am also fluent in spanish."",""Q2"":""Maybe. My partner messed up somtimes but I still know what they meant.  Little mistakes."",""Q3"":""Not at all."",""Q4"":""Not really, they were all pretty straight forward."",""Q5"":""Maybe to see if we adjust to the way our partner describes things."",""Q6"":""The instructions are crystal clear.""}"
