"rt","correct","stimulus","key_press","phase","verif_ans","trial_type","trial_index","time_elapsed","internal_node_id","resp_iscorrect","verif_response","responses"
"4357","true","img/F01.jpg","89","0","y","categorize-image-asp","9","1216257","0.0-8.0-1.0","true","89",""
"13991","","","","0","","image-text","10","1230254","0.0-8.0-2.0","","","{""Q0"":""The sailor is holding a broom""}"
"4632","true","img/F03.jpg","89","0","y","categorize-image-asp","13","1245969","0.0-8.0-1.1","true","89",""
"18682","","","","0","","image-text","14","1264654","0.0-8.0-2.1","","","{""Q0"":""The old lady is holding a cane""}"
"2115","true","img/F05.jpg","89","0","y","categorize-image-asp","17","1278609","0.0-8.0-1.2","true","89",""
"14616","","","","0","","image-text","18","1293230","0.0-8.0-2.2","","","{""Q0"":""A soldier holds the mop""}"
"11133","true","img/P22.jpg","89","1","y","categorize-image-asp","21","1316831","0.0-10.0-0.0","true","89",""
"16056","","","","1","","image-text","22","1332894","0.0-10.0-1.0","","","{""Q0"":""The sailor is about to touch the swimmer""}"
"13304","true","img/P24.jpg","78","1","n","categorize-image-asp","24","1360959","0.0-10.0-0.1","true","78",""
"21514","","","","1","","image-text","25","1382477","0.0-10.0-1.1","","","{""Q0"":""The sailor is about to touch the clown""}"
"5411","false","img/P11.jpg","89","1","n","categorize-image-asp","27","1411167","0.0-10.0-0.2","false","89",""
"15594","","","","1","","image-text","28","1426766","0.0-10.0-1.2","","","{""Q0"":""the doctor is followed by the pirate""}"
"5896","true","img/P39.jpg","78","1","n","categorize-image-asp","30","1447969","0.0-10.0-0.3","true","78",""
"15961","","","","1","","image-text","31","1463934","0.0-10.0-1.3","","","{""Q0"":""The painter is kissing the clown""}"
"6244","true","img/P27.jpg","78","1","n","categorize-image-asp","33","1485759","0.0-10.0-0.4","true","78",""
"20475","","","","1","","image-text","34","1506237","0.0-10.0-1.4","","","{""Q0"":""The soldier scolds the ballerina""}"
"5131","true","img/P23.jpg","78","1","n","categorize-image-asp","36","1523424","0.0-10.0-0.5","true","78",""
"14113","","","","1","","image-text","37","1537542","0.0-10.0-1.5","","","{""Q0"":""The cow boy punches the ballerina""}"
"14697","false","img/P46.jpg","78","1","y","categorize-image-asp","39","1565215","0.0-10.0-0.6","false","78",""
"9785","","","","1","","image-text","40","1575005","0.0-10.0-1.6","","","{""Q0"":""The waitress tickles the doctor""}"
"8306","true","img/P13.jpg","89","1","y","categorize-image-asp","42","1595855","0.0-10.0-0.7","true","89",""
"17489","","","","1","","image-text","43","1613349","0.0-10.0-1.7","","","{""Q0"":""The soldier is followed by the nun""}"
"5395","true","img/P01.jpg","89","1","y","categorize-image-asp","45","1632141","0.0-10.0-0.8","true","89",""
"13971","","","","1","","image-text","46","1646117","0.0-10.0-1.8","","","{""Q0"":""The soldier chases the robber""}"
"6425","true","img/P31.jpg","78","1","n","categorize-image-asp","48","1664766","0.0-10.0-0.9","true","78",""
"13875","","","","1","","image-text","49","1678645","0.0-10.0-1.9","","","{""Q0"":""The professor scolds the soldier""}"
"2482","true","img/P35.jpg","78","1","n","categorize-image-asp","51","1694302","0.0-10.0-0.10","true","78",""
"10410","","","","1","","image-text","52","1704717","0.0-10.0-1.10","","","{""Q0"":""The painter kisses the soldier""}"
"3914","true","img/P45.jpg","89","1","y","categorize-image-asp","54","1732138","0.0-10.0-0.11","true","89",""
"14662","","","","1","","image-text","55","1746805","0.0-10.0-1.11","","","{""Q0"":""the sailor is slapped by the cowboy""}"
"6665","false","img/P06.jpg","78","1","y","categorize-image-asp","57","1765696","0.0-10.0-0.12","false","78",""
"13569","","","","1","","image-text","58","1779268","0.0-10.0-1.12","","","{""Q0"":""The waiteress kickec the clown""}"
"9328","true","img/P29.jpg","89","1","y","categorize-image-asp","60","1804382","0.0-10.0-0.13","true","89",""
"15747","","","","1","","image-text","61","1820133","0.0-10.0-1.13","","","{""Q0"":""The soldier is scolded by the boxer""}"
"10853","true","img/P41.jpg","89","1","y","categorize-image-asp","63","1844991","0.0-10.0-0.14","true","89",""
"11482","","","","1","","image-text","64","1856477","0.0-10.0-1.14","","","{""Q0"":""The soldier slaps the swimmer""}"
"2494","true","img/P37.jpg","89","1","y","categorize-image-asp","66","1875856","0.0-10.0-0.15","true","89",""
"9312","","","","1","","image-text","67","1885172","0.0-10.0-1.15","","","{""Q0"":""The nun kisses the ballerina""}"
"4377","true","img/P09.jpg","89","1","y","categorize-image-asp","69","1899374","0.0-10.0-0.16","true","89",""
"9964","","","","1","","image-text","70","1909342","0.0-10.0-1.16","","","{""Q0"":""The pirate follows the sailor""}"
"4023","true","img/P32.jpg","78","1","n","categorize-image-asp","72","1924350","0.0-10.0-0.17","true","78",""
"15915","","","","1","","image-text","73","1940269","0.0-10.0-1.17","","","{""Q0"":""the chef shoots the swimmer""}"
"12855","false","img/P28.jpg","78","1","y","categorize-image-asp","75","1965280","0.0-10.0-0.18","false","78",""
"12659","","","","1","","image-text","76","1977942","0.0-10.0-1.18","","","{""Q0"":""The boxer is shot by the chef""}"
"7697","true","img/P48.jpg","78","1","n","categorize-image-asp","78","1998558","0.0-10.0-0.19","true","78",""
"17904","","","","1","","image-text","79","2016469","0.0-10.0-1.19","","","{""Q0"":""The waitress tickles the monk""}"
"12240","true","img/P19.jpg","78","1","n","categorize-image-asp","81","2043008","0.0-10.0-0.20","true","78",""
"10470","","","","1","","image-text","82","2053484","0.0-10.0-1.20","","","{""Q0"":""The artist punches the monk""}"
"3712","true","img/P05.jpg","89","1","y","categorize-image-asp","84","2073934","0.0-10.0-0.21","true","89",""
"13119","","","","1","","image-text","85","2087060","0.0-10.0-1.21","","","{""Q0"":""The pirate is chased by the robber""}"
"10254","true","img/P25.jpg","89","1","y","categorize-image-asp","87","2110671","0.0-10.0-0.22","true","89",""
"16551","","","","1","","image-text","88","2127228","0.0-10.0-1.22","","","{""Q0"":""The professor scolds the sailor ""}"
"14065","true","img/P21.jpg","89","1","y","categorize-image-asp","90","2156030","0.0-10.0-0.23","true","89",""
"17602","","","","1","","image-text","91","2173637","0.0-10.0-1.23","","","{""Q0"":""The doctor is punched by the cowboy""}"
"3702","true","img/P33.jpg","89","1","y","categorize-image-asp","93","2189742","0.0-10.0-0.24","true","89",""
"7699","","","","1","","image-text","94","2197444","0.0-10.0-1.24","","","{""Q0"":""the nun kisses the boxer""}"
"5424","true","img/P40.jpg","78","1","n","categorize-image-asp","96","2217119","0.0-10.0-0.25","true","78",""
"13326","","","","1","","image-text","97","2230452","0.0-10.0-1.25","","","{""Q0"":""the boxer pulls the clown""}"
"3366","true","img/P12.jpg","89","1","y","categorize-image-asp","99","2245597","0.0-10.0-0.26","true","89",""
"16939","","","","1","","image-text","100","2262540","0.0-10.0-1.26","","","{""Q0"":""The cowboy pushes the swimmer""}"
"4363","true","img/P08.jpg","78","1","n","categorize-image-asp","102","2278206","0.0-10.0-0.27","true","78",""
"9163","","","","1","","image-text","103","2287372","0.0-10.0-1.27","","","{""Q0"":""The waitress kicks the robber""}"
"10860","false","img/P38.jpg","78","1","y","categorize-image-asp","105","2312638","0.0-10.0-0.28","false","78",""
"9113","","","","1","","image-text","106","2321755","0.0-10.0-1.28","","","{""Q0"":""The pirate pulls the ballerina""}"
"30479","true","img/P15.jpg","78","1","n","categorize-image-asp","108","2370109","0.0-10.0-0.29","true","78",""
"20250","","","","1","","image-text","109","2390364","0.0-10.0-1.29","","","{""Q0"":""The boxer is followed by the nun""}"
"23139","true","img/P17.jpg","89","1","y","categorize-image-asp","111","2427550","0.0-10.0-0.30","true","89",""
"9897","","","","1","","image-text","112","2437452","0.0-10.0-1.30","","","{""Q0"":""The painter punches the clown""}"
"4887","true","img/P07.jpg","78","1","n","categorize-image-asp","114","2455886","0.0-10.0-0.31","true","78",""
"9835","","","","1","","image-text","115","2465724","0.0-10.0-1.31","","","{""Q0"":""The waitress chases the doctor""}"
"15226","true","img/P43.jpg","78","1","n","categorize-image-asp","117","2497756","0.0-10.0-0.32","true","78",""
"8666","","","","1","","image-text","118","2506427","0.0-10.0-1.32","","","{""Q0"":""the soldier slaps the boxer""}"
"5015","true","img/P16.jpg","78","1","n","categorize-image-asp","120","2528766","0.0-10.0-0.33","true","78",""
"14249","","","","1","","image-text","121","2543020","0.0-10.0-1.33","","","{""Q0"":""the ballerina is pushed by the cowboy""}"
"2585","true","img/P03.jpg","78","1","n","categorize-image-asp","123","2561916","0.0-10.0-0.34","true","78",""
"10147","","","","1","","image-text","124","2572068","0.0-10.0-1.34","","","{""Q0"":""the swimmier is chased by the soldier""}"
"4053","true","img/P47.jpg","78","1","n","categorize-image-asp","126","2590958","0.0-10.0-0.35","true","78",""
"9240","","","","1","","image-text","127","2600203","0.0-10.0-1.35","","","{""Q0"":""the cowboy slaps the ballerina""}"
"120823","","","","2","","survey-text","129","2723859","0.0-11.0","","","{""Q0"":""Y"",""Q1"":""Y: Hindi and Marathi "",""Q2"":""No: and any other language...maybe some language from SE asia "",""Q3"":""N"",""Q4"":""N"",""Q5"":""understand how different people work with languages "",""Q6"":""Maybe show how mnay more scenerios we had left remaining to describe...I was getting a bit angsty becuase it was getting so repetitive ""}"
