"rt","correct","stimulus","key_press","phase","verif_ans","trial_type","trial_index","time_elapsed","internal_node_id","resp_iscorrect","verif_response","responses"
"2478","true","img/F01.jpg","89","0","y","categorize-image-asp","9","4639193","0.0-8.0-1.0","true","89",""
"8736","","","","0","","image-text","10","4647930","0.0-8.0-2.0","","","{""Q0"":""The sailor holds a broom""}"
"4808","true","img/F03.jpg","89","0","y","categorize-image-asp","13","4665655","0.0-8.0-1.1","true","89",""
"13922","","","","0","","image-text","14","4679578","0.0-8.0-2.1","","","{""Q0"":""The cane is held by the waitress""}"
"3345","true","img/F05.jpg","89","0","y","categorize-image-asp","17","4694823","0.0-8.0-1.2","true","89",""
"10026","","","","0","","image-text","18","4704850","0.0-8.0-2.2","","","{""Q0"":""A mop is held by the soldier""}"
"4870","true","img/P06.jpg","89","1","y","categorize-image-asp","21","4723730","0.0-10.0-0.0","true","89",""
"15550","","","","1","","image-text","22","4739282","0.0-10.0-1.0","","","{""Q0"":""The waitress kicks a man""}"
"3933","true","img/P13.jpg","89","1","y","categorize-image-asp","24","4757914","0.0-10.0-0.1","true","89",""
"17613","","","","1","","image-text","25","4775529","0.0-10.0-1.1","","","{""Q0"":""The nun follows the soldier""}"
"5220","true","img/P38.jpg","89","1","y","categorize-image-asp","27","4791902","0.0-10.0-0.2","true","89",""
"14354","","","","1","","image-text","28","4806257","0.0-10.0-1.2","","","{""Q0"":""The pirate pulls the ballerina""}"
"3510","true","img/P45.jpg","89","1","y","categorize-image-asp","30","4820181","0.0-10.0-0.3","true","89",""
"13709","","","","1","","image-text","31","4833891","0.0-10.0-1.3","","","{""Q0"":""The cowboy slaps the sailor""}"
"7147","true","img/P19.jpg","78","1","n","categorize-image-asp","33","4852207","0.0-10.0-0.4","true","78",""
"11795","","","","1","","image-text","34","4864003","0.0-10.0-1.4","","","{""Q0"":""The painter punches the priest""}"
"11366","false","img/P32.jpg","89","1","n","categorize-image-asp","36","4887757","0.0-10.0-0.5","false","89",""
"10829","","","","1","","image-text","37","4898587","0.0-10.0-1.5","","","{""Q0"":""The chef shoots the swimmer""}"
"3811","true","img/P46.jpg","89","1","y","categorize-image-asp","39","4912398","0.0-10.0-0.6","true","89",""
"12540","","","","1","","image-text","40","4924940","0.0-10.0-1.6","","","{""Q0"":""The waitress tickles the doctor""}"
"8442","true","img/P47.jpg","78","1","n","categorize-image-asp","42","4945169","0.0-10.0-0.7","true","78",""
"14910","","","","1","","image-text","43","4960080","0.0-10.0-1.7","","","{""Q0"":""The cowboy slaps the ballerina""}"
"3231","true","img/P28.jpg","89","1","y","categorize-image-asp","45","4974992","0.0-10.0-0.8","true","89",""
"9103","","","","1","","image-text","46","4984096","0.0-10.0-1.8","","","{""Q0"":""The chef shoots the boxer""}"
"3726","true","img/P23.jpg","78","1","n","categorize-image-asp","48","4998621","0.0-10.0-0.9","true","78",""
"9811","","","","1","","image-text","49","5008432","0.0-10.0-1.9","","","{""Q0"":""The cowboy punches the ballerina""}"
"3007","true","img/P12.jpg","89","1","y","categorize-image-asp","51","5025474","0.0-10.0-0.10","true","89",""
"16369","","","","1","","image-text","52","5041843","0.0-10.0-1.10","","","{""Q0"":""cowboy pushes the swimmer""}"
"3674","true","img/P21.jpg","89","1","y","categorize-image-asp","54","5058863","0.0-10.0-0.11","true","89",""
"11868","","","","1","","image-text","55","5070732","0.0-10.0-1.11","","","{""Q0"":""The cowboy punches the doctor""}"
"3590","true","img/P03.jpg","78","1","n","categorize-image-asp","57","5086241","0.0-10.0-0.12","true","78",""
"10881","","","","1","","image-text","58","5097124","0.0-10.0-1.12","","","{""Q0"":""The policeman chases the swimmer""}"
"9694","true","img/P48.jpg","78","1","n","categorize-image-asp","60","5121024","0.0-10.0-0.13","true","78",""
"11657","","","","1","","image-text","61","5132682","0.0-10.0-1.13","","","{""Q0"":""The waitress tickles the priest""}"
"4543","true","img/P35.jpg","78","1","n","categorize-image-asp","63","5147997","0.0-10.0-0.14","true","78",""
"13875","","","","1","","image-text","64","5161874","0.0-10.0-1.14","","","{""Q0"":""The artist kisses the soldier""}"
"5599","true","img/P40.jpg","78","1","n","categorize-image-asp","66","5178797","0.0-10.0-0.15","true","78",""
"12420","","","","1","","image-text","67","5191218","0.0-10.0-1.15","","","{""Q0"":""The boxer pulls the clown""}"
"3613","true","img/P11.jpg","78","1","n","categorize-image-asp","69","5210031","0.0-10.0-0.16","true","78",""
"9882","","","","1","","image-text","70","5219914","0.0-10.0-1.16","","","{""Q0"":""The pirate follows the doctor""}"
"6462","true","img/P05.jpg","89","1","y","categorize-image-asp","72","5239247","0.0-10.0-0.17","true","89",""
"17075","","","","1","","image-text","73","5256322","0.0-10.0-1.17","","","{""Q0"":""The pirate chases the robber""}"
"2563","true","img/P33.jpg","89","1","y","categorize-image-asp","75","5270730","0.0-10.0-0.18","true","89",""
"11055","","","","1","","image-text","76","5281786","0.0-10.0-1.18","","","{""Q0"":""The nun kisses the boxer""}"
"2869","true","img/P31.jpg","78","1","n","categorize-image-asp","78","5297093","0.0-10.0-0.19","true","78",""
"14068","","","","1","","image-text","79","5311162","0.0-10.0-1.19","","","{""Q0"":""The professor scolds the soldier""}"
"3254","true","img/P01.jpg","89","1","y","categorize-image-asp","81","5325064","0.0-10.0-0.20","true","89",""
"11841","","","","1","","image-text","82","5336906","0.0-10.0-1.20","","","{""Q0"":""The policeman chases the robber ""}"
"3480","true","img/P07.jpg","78","1","n","categorize-image-asp","84","5351682","0.0-10.0-0.21","true","78",""
"18928","","","","1","","image-text","85","5370610","0.0-10.0-1.21","","","{""Q0"":""The waitress chases the doctor""}"
"2865","true","img/P17.jpg","89","1","y","categorize-image-asp","87","5382861","0.0-10.0-0.22","true","89",""
"9393","","","","1","","image-text","88","5392255","0.0-10.0-1.22","","","{""Q0"":""The artist punches the clown""}"
"4435","true","img/P08.jpg","78","1","n","categorize-image-asp","90","5409007","0.0-10.0-0.23","true","78",""
"11478","","","","1","","image-text","91","5420487","0.0-10.0-1.23","","","{""Q0"":""The waitress kicks the robber""}"
"3181","true","img/P09.jpg","89","1","y","categorize-image-asp","93","5432944","0.0-10.0-0.24","true","89",""
"9655","","","","1","","image-text","94","5442601","0.0-10.0-1.24","","","{""Q0"":""The pirate follows the sailor""}"
"9889","true","img/P16.jpg","78","1","n","categorize-image-asp","96","5464139","0.0-10.0-0.25","true","78",""
"12509","","","","1","","image-text","97","5476649","0.0-10.0-1.25","","","{""Q0"":""The cowboy pushes the ballerina""}"
"3027","true","img/P43.jpg","78","1","n","categorize-image-asp","99","5491496","0.0-10.0-0.26","true","78",""
"11051","","","","1","","image-text","100","5502547","0.0-10.0-1.26","","","{""Q0"":""The policeman slaps the boxer""}"
"5506","true","img/P29.jpg","89","1","y","categorize-image-asp","102","5518906","0.0-10.0-0.27","true","89",""
"11537","","","","1","","image-text","103","5530443","0.0-10.0-1.27","","","{""Q0"":""The policeman scolds the boxer""}"
"2704","true","img/P25.jpg","89","1","y","categorize-image-asp","105","5543628","0.0-10.0-0.28","true","89",""
"10422","","","","1","","image-text","106","5554051","0.0-10.0-1.28","","","{""Q0"":""The professor scolds the sailor""}"
"4520","true","img/P15.jpg","78","1","n","categorize-image-asp","108","5571198","0.0-10.0-0.29","true","78",""
"7747","","","","1","","image-text","109","5578946","0.0-10.0-1.29","","","{""Q0"":""The nun follows the boxer""}"
"2280","true","img/P27.jpg","78","1","n","categorize-image-asp","111","5594068","0.0-10.0-0.30","true","78",""
"9517","","","","1","","image-text","112","5603587","0.0-10.0-1.30","","","{""Q0"":""The policeman scolds the ballerina""}"
"3678","true","img/P24.jpg","78","1","n","categorize-image-asp","114","5619830","0.0-10.0-0.31","true","78",""
"9235","","","","1","","image-text","115","5629067","0.0-10.0-1.31","","","{""Q0"":""The sailor touches the clown""}"
"4294","true","img/P41.jpg","89","1","y","categorize-image-asp","117","5646387","0.0-10.0-0.32","true","89",""
"8462","","","","1","","image-text","118","5654851","0.0-10.0-1.32","","","{""Q0"":""The policeman slaps the swimmer""}"
"2946","true","img/P39.jpg","78","1","n","categorize-image-asp","120","5671098","0.0-10.0-0.33","true","78",""
"14367","","","","1","","image-text","121","5685466","0.0-10.0-1.33","","","{""Q0"":""The clown is kissed by the artist""}"
"4628","true","img/P22.jpg","89","1","y","categorize-image-asp","123","5700380","0.0-10.0-0.34","true","89",""
"10397","","","","1","","image-text","124","5710778","0.0-10.0-1.34","","","{""Q0"":""The swimmer is touched by the sailor""}"
"4057","true","img/P37.jpg","89","1","y","categorize-image-asp","126","5726882","0.0-10.0-0.35","true","89",""
"20270","","","","1","","image-text","127","5747153","0.0-10.0-1.35","","","{""Q0"":""the nun kisses the ballerina""}"
"442489","","","","2","","survey-text","129","6198068","0.0-11.0","","","{""Q0"":""Y"",""Q1"":""Y, Japanese"",""Q2"":""No, I believe my lab partner was a robot since there were typing errors that seemed obviously fake. When for the majority of the beginning, the lab partner exhibits responses that seem thought out, then suddenly misses the subject of the sentence every time, while simultaneously misspelling words like \""touched\"" by replacing an \""n\"" with a \""d\"" which is no where near the keyboard makes it pretty hard to think they are not a so-called \""native english speaker\""."",""Q3"":""N"",""Q4"":""N"",""Q5"":""The purpose of the experiment is to see if the user conforms and adjusts based on the information that they are given that says they are working with an \""actual person\"". Even though the meaning of the sentences are differed, the user may think that they are obligated to answer correctly by thinking that \""the other person\"" is just not a native and natural speaker. "",""Q6"":""The instructions were easy to understand so no problems here.""}"
